2019/05/23	15:17
Amplitude: 0.10 V
Freq  (Hz) 	 Gain (dB)  	 Phase (deg)
 10.058            -28.854             66.172
 15.832            -24.945             64.771
 25.146            -21.059             63.811
 39.861            -17.247             62.581
 63.144            -13.536             60.600
100.024             -9.983             57.833
158.511             -6.648             54.257
251.271             -3.326             54.845
398.047             -0.006             49.496
630.878              2.729             38.868
1000.054              4.634             24.284
1584.925              5.593              7.573
2511.963              5.664             -9.886
3981.031              4.854            -27.890
6309.524              3.079            -45.715
9999.983              0.381            -61.921
15848.875             -3.005            -75.765
25118.887             -6.806            -87.786
39810.687            -10.938            -99.606
63095.801            -15.534            -113.062
100000.016            -20.916            -128.740
158489.309            -27.636            213.434
