2019/05/23	15:05
Amplitude: 0.10 V
Freq  (Hz) 	 Gain (dB)  	 Phase (deg)
 10.058            -43.926             83.719
 15.832            -39.995             82.902
 25.146            -36.017             82.199
 39.861            -32.048             80.802
 63.144            -28.093             78.702
100.024            -24.181             74.867
158.511            -19.973             62.549
251.271            -16.441             59.087
398.047            -13.239             50.585
630.878            -10.680             37.652
1000.054             -9.031             21.933
1584.925             -8.308              5.179
2511.963             -8.408            -11.828
3981.031             -9.362            -29.140
6309.524            -11.281            -45.977
9999.983            -14.091            -60.620
15848.875            -17.598            -71.770
25118.887            -21.562            -80.058
39810.687            -26.069            -86.042
63095.801            -31.588            -88.439
100000.016            -44.842            -43.972
158489.309            -43.530            -17.058
