2019/05/23	15:02
Amplitude: 0.10 V
Freq  (Hz) 	 Gain (dB)  	 Phase (deg)
 10.058            -51.074             85.945
 15.832            -47.168             85.605
 25.146            -43.148             84.342
 39.861            -39.204             83.455
 63.144            -35.241             81.404
100.024            -31.327             77.861
158.511            -27.394             70.755
251.271            -23.753             64.398
398.047            -20.484             54.084
630.878            -17.892             39.842
1000.054            -16.221             23.248
1584.925            -15.478              5.926
2511.963            -15.566            -11.687
3981.031            -16.513            -29.571
6309.524            -18.418            -47.164
9999.983            -21.226            -62.747
15848.875            -24.732            -75.714
25118.887            -28.735            -86.737
39810.687            -33.341            -97.671
63095.801            -39.254            -111.522
100000.016            -49.266            139.211
158489.309            -49.068             97.414
