2019/05/23	15:10
Amplitude: 0.10 V
Freq  (Hz) 	 Gain (dB)  	 Phase (deg)
 10.058            -32.181             72.233
 15.832            -28.249             70.653
 25.146            -24.309             69.858
 39.861            -20.416             68.511
 63.144            -16.581             66.360
100.024            -12.823             62.970
158.511             -9.104             54.942
251.271             -5.764             54.785
398.047             -2.566             48.874
630.878              0.150             38.009
1000.054              1.941             22.966
1584.925              2.793              6.358
2511.963              2.785            -10.937
3981.031              1.910            -28.737
6309.524              0.069            -46.229
9999.983             -2.711            -61.201
15848.875             -6.143            -73.637
25118.887            -10.029            -83.715
39810.687            -14.349            -92.548
63095.801            -19.405            -100.579
100000.016            -26.910            -106.051
158489.309            -33.816            -85.440
