2019/05/23	15:07
Amplitude: 0.10 V
Freq  (Hz) 	 Gain (dB)  	 Phase (deg)
 10.058            -36.005             77.442
 15.832            -32.081             76.500
 25.146            -28.105             75.560
 39.861            -24.174             74.199
 63.144            -20.270             72.018
100.024            -16.368             67.271
158.511            -12.216             54.438
251.271             -8.901             53.985
398.047             -5.757             47.692
630.878             -3.186             36.324
1000.054             -1.489             21.465
1584.925             -0.717              5.296
2511.963             -0.788            -11.428
3981.031             -1.717            -28.496
6309.524             -3.606            -45.004
9999.983             -6.393            -59.141
15848.875             -9.845            -69.833
25118.887            -13.734            -77.088
39810.687            -18.034            -81.227
63095.801            -22.872            -80.307
100000.016            -27.526            -66.237
158489.309            -29.898            -46.635
