2019/05/21	15:05
Amplitude: 0.10 V
Freq  (Hz) 	 Gain (dB)  	 Phase (deg)
100.024             39.628             -0.693
125.915             39.611             -0.974
158.511             39.592             -1.322
199.489             39.587             -1.670
251.271             39.584             -1.966
316.277             39.586             -2.566
398.047             39.589             -3.181
501.238             39.585             -4.051
630.878             39.574             -5.109
794.418             39.569             -6.449
1000.054             39.546             -7.989
1258.962             39.522            -10.036
1584.925             39.474            -12.578
1995.265             39.397            -15.681
2511.963             39.263            -19.521
3162.213             38.998            -24.128
3981.031             38.615            -29.522
5011.819             38.063            -35.846
6309.524             37.289            -42.792
7943.250             36.263            -50.195
9999.983             34.971            -57.530
12589.246             33.431            -64.128
15848.875             31.713            -69.719
19952.655             29.886            -74.061
