2019/05/27	15:03
Amplitude: 5.00 V
Freq  (Hz) 	 Gain (dB)  	 Phase (deg)
 10.058            -15.863             -1.549
 12.666            -15.867             -1.944
 15.832            -15.872             -2.410
 19.930            -15.878             -3.027
 25.146            -15.886             -3.803
 31.665            -15.895             -4.766
 39.861            -15.907             -5.959
 50.105            -15.923             -7.447
 63.144            -15.944             -9.332
 79.349            -15.973            -11.664
100.024            -16.012            -14.623
125.915            -16.068            -18.319
158.511            -16.148            -22.960
199.489            -16.266            -28.778
251.271            -16.446            -36.126
316.277            -16.727            -45.305
398.047            -17.176            -56.784
501.238            -17.912            -71.014
630.878            -19.112            -88.048
794.418            -21.006            -107.294
1000.054            -23.740            -126.994
1258.962            -27.282            -145.104
1584.925            -31.411            -160.150
1995.265            -35.896            -171.814
2511.963            -40.570            179.452
3162.213            -45.330            172.936
3981.031            -50.185            167.728
5011.819            -55.224            162.735
6309.524            -60.635            156.357
7943.250            -66.542            145.684
9999.983            -73.157            119.832
12589.246            -76.277             67.133
15848.875            -74.201             33.427
19952.655            -72.369             20.632
25118.887            -71.305             15.048
31622.685            -70.712             12.502
39810.687            -70.393             11.643
50118.752            -70.248             12.122
63095.801            -70.208             13.885
79432.875            -70.235             17.056
100000.016            -70.487             25.176
125892.460            -70.229             29.125
158489.309            -69.932             38.880
199526.176            -69.183             50.729
