2019/05/27	16:29
Amplitude: 5.00 V
Freq  (Hz) 	 Gain (dB)  	 Phase (deg)
 10.058            -85.956             92.265
 12.666            -83.566             91.947
 15.832            -81.696             98.670
 19.930            -79.411            105.790
 25.146            -76.917            112.146
 31.665            -74.362            118.901
 39.861            -71.576            125.673
 50.105            -68.599            132.092
 63.144            -65.269            139.676
 79.349            -61.875            145.824
100.024            -58.281            150.997
125.915            -54.590            155.741
158.511            -51.234            158.562
199.489            -46.899            163.074
251.271            -42.597            166.305
316.277            -38.276            168.460
398.047            -33.847            169.361
501.238            -29.234            168.575
630.878            -24.414            164.952
794.418            -19.460            156.642
1000.054            -14.740            141.570
1258.962            -11.020            120.034
1584.925             -8.788             97.706
1995.265             -7.550             79.718
2511.963             -6.689             66.060
3162.213             -5.973             55.167
3981.031             -5.367             46.013
5011.819             -4.876             38.157
6309.524             -4.497             31.432
7943.250             -4.215             25.741
9999.983             -4.011             20.998
12589.246             -3.862             17.083
15848.875             -3.755             13.945
19952.655             -3.675             11.363
25118.887             -3.614              9.278
31622.685             -3.566              7.598
39810.687             -3.527              6.247
50118.752             -3.494              5.161
63095.801             -3.465              4.291
79432.875             -3.439              3.594
100000.016             -3.415              3.044
125892.460             -3.391              2.591
158489.309             -3.367              2.235
199526.176             -3.342              1.945
